{
  "type": "collection",
  "resourceType": "Bundle",
  "total": 4,
  "entry": [
    {
      "resource": {
        "resourceType": "Patient",
        "id": "1",
        "generalPractitioner": [
          {
            "reference": "Practitioner/5"
          }
        ],
        "managingOrganization": {
          "reference": "Organization/6"
        }
      },
      "request": {
        "url": "http://mock-server:1080/test_fhir_simulated_graph_with_errors_async/Patient/1",
        "method": "GET"
      },
      "response": {
        "status": "200"
      }
    },
    {
      "resource": {
        "resourceType": "Practitioner",
        "id": "5"
      },
      "request": {
        "url": "http://mock-server:1080/test_fhir_simulated_graph_with_errors_async/Practitioner/5",
        "method": "GET"
      },
      "response": {
        "status": "200"
      }
    },
    {
      "resource": {
        "resourceType": "Organization",
        "id": "6"
      },
      "request": {
        "url": "http://mock-server:1080/test_fhir_simulated_graph_with_errors_async/Organization/6",
        "method": "GET"
      },
      "response": {
        "status": "200"
      }
    },
    {
      "resource": {
        "resourceType": "Coverage",
        "id": "7"
      },
      "request": {
        "url": "http://mock-server:1080/test_fhir_simulated_graph_with_errors_async/Coverage?patient=1",
        "method": "GET"
      },
      "response": {
        "status": "200"
      }
    }
  ]
}
