{
  "type": "collection",
  "resourceType": "Bundle",
  "total": 8,
  "entry": [
    {
      "resource": {
        "resourceType": "Patient",
        "id": "1",
        "generalPractitioner": [
          {
            "reference": "Practitioner/5"
          }
        ],
        "managingOrganization": {
          "reference": "Organization/6"
        }
      },
      "request": {
        "url": "http://mock-server:1080/test_fhir_simulated_graph_with_errors_async/Patient/1",
        "method": "GET"
      },
      "response": {
        "status": "200"
      }
    },
    {
      "resource": {
        "resourceType": "Practitioner",
        "id": "5"
      },
      "request": {
        "url": "http://mock-server:1080/test_fhir_simulated_graph_with_errors_async/Practitioner/5",
        "method": "GET"
      },
      "response": {
        "status": "200"
      }
    },
    {
      "resource": {
        "resourceType": "Organization",
        "id": "6"
      },
      "request": {
        "url": "http://mock-server:1080/test_fhir_simulated_graph_with_errors_async/Organization/6",
        "method": "GET"
      },
      "response": {
        "status": "200"
      }
    },
    {
      "resource": {
        "resourceType": "Coverage",
        "id": "7"
      },
      "request": {
        "url": "http://mock-server:1080/test_fhir_simulated_graph_with_errors_async/Coverage?patient=1",
        "method": "GET"
      },
      "response": {
        "status": "200"
      }
    },
    {
      "resource": {
        "resourceType": "OperationOutcome",
        "issue": [
          {
            "severity": "error",
            "code": "not-found",
            "details": {
              "coding": [
                {
                  "system": "https://www.icanbwell.com/url",
                  "code": "http://mock-server:1080/test_fhir_simulated_graph_with_errors_async/ExplanationOfBenefit?patient=1"
                },
                {
                  "system": "https://www.icanbwell.com/resourceType",
                  "code": "ExplanationOfBenefit"
                },
                {
                  "system": "https://www.icanbwell.com/statuscode",
                  "code": 404
                }
              ]
            },
            "diagnostics": "{\"url\": \"http://mock-server:1080/test_fhir_simulated_graph_with_errors_async/ExplanationOfBenefit?patient=1\", \"error\": \"NotFound\", \"status\": 404, \"extra_context_to_return\": {\"slug\": \"1234\"}, \"accessToken\": null, \"requestId\": null, \"resourceType\": \"ExplanationOfBenefit\", \"id\": null}"
          }
        ]
      },
      "request": {
        "url": "http://mock-server:1080/test_fhir_simulated_graph_with_errors_async/ExplanationOfBenefit?patient=1",
        "method": "GET"
      },
      "response": {
        "status": "404"
      }
    },
    {
      "resource": {
        "resourceType": "OperationOutcome",
        "issue": [
          {
            "severity": "error",
            "code": "not-found",
            "details": {
              "coding": [
                {
                  "system": "https://www.icanbwell.com/url",
                  "code": "http://mock-server:1080/test_fhir_simulated_graph_with_errors_async/Observation?patient=1&category=vital-signs,social-history,laboratory"
                },
                {
                  "system": "https://www.icanbwell.com/resourceType",
                  "code": "Observation"
                },
                {
                  "system": "https://www.icanbwell.com/statuscode",
                  "code": 404
                }
              ]
            },
            "diagnostics": "{\"url\": \"http://mock-server:1080/test_fhir_simulated_graph_with_errors_async/Observation?patient=1&category=vital-signs,social-history,laboratory\", \"error\": \"NotFound\", \"status\": 404, \"extra_context_to_return\": {\"slug\": \"1234\"}, \"accessToken\": null, \"requestId\": null, \"resourceType\": \"Observation\", \"id\": null}"
          }
        ]
      },
      "request": {
        "url": "http://mock-server:1080/test_fhir_simulated_graph_with_errors_async/Observation?patient=1&category=vital-signs,social-history,laboratory",
        "method": "GET"
      },
      "response": {
        "status": "404"
      }
    },
    {
      "resource": {
        "resourceType": "OperationOutcome",
        "issue": [
          {
            "severity": "error",
            "code": "not-found",
            "details": {
              "coding": [
                {
                  "system": "https://www.icanbwell.com/url",
                  "code": "http://mock-server:1080/test_fhir_simulated_graph_with_errors_async/MedicationRequest?patient=1"
                },
                {
                  "system": "https://www.icanbwell.com/resourceType",
                  "code": "MedicationRequest"
                },
                {
                  "system": "https://www.icanbwell.com/statuscode",
                  "code": 404
                }
              ]
            },
            "diagnostics": "{\"url\": \"http://mock-server:1080/test_fhir_simulated_graph_with_errors_async/MedicationRequest?patient=1\", \"error\": \"NotFound\", \"status\": 404, \"extra_context_to_return\": {\"slug\": \"1234\"}, \"accessToken\": null, \"requestId\": null, \"resourceType\": \"MedicationRequest\", \"id\": null}"
          }
        ]
      },
      "request": {
        "url": "http://mock-server:1080/test_fhir_simulated_graph_with_errors_async/MedicationRequest?patient=1",
        "method": "GET"
      },
      "response": {
        "status": "404"
      }
    },
    {
      "resource": {
        "resourceType": "OperationOutcome",
        "issue": [
          {
            "severity": "error",
            "code": "not-found",
            "details": {
              "coding": [
                {
                  "system": "https://www.icanbwell.com/url",
                  "code": "http://mock-server:1080/test_fhir_simulated_graph_with_errors_async/MedicationDispense?patient=1"
                },
                {
                  "system": "https://www.icanbwell.com/resourceType",
                  "code": "MedicationDispense"
                },
                {
                  "system": "https://www.icanbwell.com/statuscode",
                  "code": 404
                }
              ]
            },
            "diagnostics": "{\"url\": \"http://mock-server:1080/test_fhir_simulated_graph_with_errors_async/MedicationDispense?patient=1\", \"error\": \"NotFound\", \"status\": 404, \"extra_context_to_return\": {\"slug\": \"1234\"}, \"accessToken\": null, \"requestId\": null, \"resourceType\": \"MedicationDispense\", \"id\": null}"
          }
        ]
      },
      "request": {
        "url": "http://mock-server:1080/test_fhir_simulated_graph_with_errors_async/MedicationDispense?patient=1",
        "method": "GET"
      },
      "response": {
        "status": "404"
      }
    }
  ]
}
