{
  "Patient": [
    {
      "resourceType": "Patient",
      "id": "1",
      "generalPractitioner": [
        {
          "reference": "Practitioner/5"
        }
      ],
      "managingOrganization": {
        "reference": "Organization/6"
      }
    }
  ],
  "Practitioner": [
    {
      "resourceType": "Practitioner",
      "id": "5"
    }
  ],
  "Organization": [
    {
      "resourceType": "Organization",
      "id": "6"
    },
    {
      "resourceType": "Organization",
      "id": "CoveragePayor"
    }
  ],
  "Coverage": [
    {
      "resourceType": "Coverage",
      "id": "7",
      "payor": [
        {
          "reference": "Organization/CoveragePayor"
        }
      ]
    }
  ],
  "OperationOutcome": [
    {
      "resourceType": "OperationOutcome",
      "issue": [
        {
          "severity": "error",
          "code": "not-found",
          "details": {
            "coding": [
              {
                "system": "https://www.icanbwell.com/url",
                "code": "http://mock-server:1080/test_fhir_simulated_graph_separate_resources_async/ExplanationOfBenefit?patient=1"
              },
              {
                "system": "https://www.icanbwell.com/resourceType",
                "code": "ExplanationOfBenefit"
              },
              {
                "system": "https://www.icanbwell.com/statuscode",
                "code": 404
              },
              {
                "system": "https://www.icanbwell.com/accessToken",
                "code": "my_access_token"
              }
            ]
          },
          "diagnostics": "{\"url\": \"http://mock-server:1080/test_fhir_simulated_graph_separate_resources_async/ExplanationOfBenefit?patient=1\", \"error\": \"NotFound\", \"status\": 404, \"extra_context_to_return\": {\"service_slug\": \"medstar\"}, \"accessToken\": \"my_access_token\", \"requestId\": null, \"resourceType\": \"ExplanationOfBenefit\", \"id\": null}"
        }
      ]
    },
    {
      "resourceType": "OperationOutcome",
      "issue": [
        {
          "severity": "error",
          "code": "not-found",
          "details": {
            "coding": [
              {
                "system": "https://www.icanbwell.com/url",
                "code": "http://mock-server:1080/test_fhir_simulated_graph_separate_resources_async/MedicationRequest?patient=1"
              },
              {
                "system": "https://www.icanbwell.com/resourceType",
                "code": "MedicationRequest"
              },
              {
                "system": "https://www.icanbwell.com/statuscode",
                "code": 404
              },
              {
                "system": "https://www.icanbwell.com/accessToken",
                "code": "my_access_token"
              }
            ]
          },
          "diagnostics": "{\"url\": \"http://mock-server:1080/test_fhir_simulated_graph_separate_resources_async/MedicationRequest?patient=1\", \"error\": \"NotFound\", \"status\": 404, \"extra_context_to_return\": {\"service_slug\": \"medstar\"}, \"accessToken\": \"my_access_token\", \"requestId\": null, \"resourceType\": \"MedicationRequest\", \"id\": null}"
        }
      ]
    },
    {
      "resourceType": "OperationOutcome",
      "issue": [
        {
          "severity": "error",
          "code": "not-found",
          "details": {
            "coding": [
              {
                "system": "https://www.icanbwell.com/url",
                "code": "http://mock-server:1080/test_fhir_simulated_graph_separate_resources_async/MedicationDispense?patient=1"
              },
              {
                "system": "https://www.icanbwell.com/resourceType",
                "code": "MedicationDispense"
              },
              {
                "system": "https://www.icanbwell.com/statuscode",
                "code": 404
              },
              {
                "system": "https://www.icanbwell.com/accessToken",
                "code": "my_access_token"
              }
            ]
          },
          "diagnostics": "{\"url\": \"http://mock-server:1080/test_fhir_simulated_graph_separate_resources_async/MedicationDispense?patient=1\", \"error\": \"NotFound\", \"status\": 404, \"extra_context_to_return\": {\"service_slug\": \"medstar\"}, \"accessToken\": \"my_access_token\", \"requestId\": null, \"resourceType\": \"MedicationDispense\", \"id\": null}"
        }
      ]
    }
  ],
  "Observation": [
    {
      "resourceType": "Observation",
      "id": "8"
    }
  ]
}
