{
  "resourceType": "Bundle",
  "total": 3,
  "type": "collection",
  "entry": [
    {
      "request": {
        "method": "GET",
        "url": "http://mock-server:1080/test_fhir_simulated_graph_caching_scope_parser_async/Patient/1"
      },
      "resource": {
        "generalPractitioner": [
          {
            "reference": "Practitioner/5"
          }
        ],
        "id": "1",
        "managingOrganization": {
          "reference": "Organization/6"
        },
        "resourceType": "Patient"
      },
      "response": {
        "status": "200"
      }
    },
    {
      "request": {
        "method": "GET",
        "url": "http://mock-server:1080/test_fhir_simulated_graph_caching_scope_parser_async/Practitioner/5"
      },
      "resource": {
        "id": "5",
        "resourceType": "Practitioner"
      },
      "response": {
        "status": "200"
      }
    },
    {
      "request": {
        "method": "GET",
        "url": "http://mock-server:1080/test_fhir_simulated_graph_caching_scope_parser_async/Organization/6"
      },
      "resource": {
        "id": "6",
        "resourceType": "Organization"
      },
      "response": {
        "status": "200"
      }
    }
  ]
}
