{
  "resourceType": "Bundle",
  "total": 10,
  "type": "collection",
  "entry": [
    {
      "request": {
        "method": "GET",
        "url": "http://mock-server:1080/test_fhir_simulated_graph_caching_input_cache_if_modified_since_async/Patient/1"
      },
      "resource": {
        "generalPractitioner": [
          {
            "reference": "Practitioner/5"
          }
        ],
        "id": "1",
        "managingOrganization": {
          "reference": "Organization/6"
        },
        "resourceType": "Patient"
      },
      "response": {
        "status": "200"
      }
    },
    {
      "request": {
        "method": "GET",
        "url": "http://mock-server:1080/test_fhir_simulated_graph_caching_input_cache_if_modified_since_async/Practitioner/5"
      },
      "resource": {
        "id": "5",
        "resourceType": "Practitioner"
      },
      "response": {
        "status": "200"
      }
    },
    {
      "request": {
        "method": "GET",
        "url": "http://mock-server:1080/test_fhir_simulated_graph_caching_input_cache_if_modified_since_async/Organization/6"
      },
      "resource": {
        "id": "6",
        "resourceType": "Organization"
      },
      "response": {
        "status": "200"
      }
    },
    {
      "request": {
        "method": "GET",
        "url": "http://mock-server:1080/test_fhir_simulated_graph_caching_input_cache_if_modified_since_async/Encounter?patient=1&recorded-date=ge2023-10-01T00:00:00+00:00"
      },
      "resource": {
        "id": "8",
        "participant": [
          {
            "individual": {
              "reference": "Practitioner/12345"
            }
          }
        ],
        "resourceType": "Encounter"
      },
      "response": {
        "status": "200"
      }
    },
    {
      "request": {
        "method": "GET",
        "url": "http://mock-server:1080/test_fhir_simulated_graph_caching_input_cache_if_modified_since_async/DocumentReference?patient=1&date=ge2023-10-01T00:00:00+00:00"
      },
      "resource": {
        "id": "11",
        "resourceType": "DocumentReference",
        "content": [
          {
            "attachment": {
              "url": "Binary/12"
            }
          },
          {
            "attachment": {
              "url": "Binary/13"
            }
          },
          {
            "attachment": {
              "url": "Binary/14"
            }
          },
          {
            "attachment": {
              "url": "Binary/15"
            }
          }
        ]
      },
      "response": {
        "status": "200"
      }
    },
    {
      "request": {
        "method": "GET",
        "url": "http://mock-server:1080/test_fhir_simulated_graph_caching_input_cache_if_modified_since_async/Binary/12"
      },
      "resource": {
        "id": "12",
        "resourceType": "Binary"
      },
      "response": {
        "status": "200"
      }
    },
    {
      "request": {
        "method": "GET",
        "url": "http://mock-server:1080/test_fhir_simulated_graph_caching_input_cache_if_modified_since_async/Binary/13"
      },
      "resource": {
        "id": "13",
        "resourceType": "Binary"
      },
      "response": {
        "status": "200"
      }
    },
    {
      "request": {
        "method": "GET",
        "url": "http://mock-server:1080/test_fhir_simulated_graph_caching_input_cache_if_modified_since_async/Binary/14"
      },
      "resource": {
        "id": "14",
        "resourceType": "Binary"
      },
      "response": {
        "status": "200"
      }
    },
    {
      "request": {
        "method": "GET",
        "url": "http://mock-server:1080/test_fhir_simulated_graph_caching_input_cache_if_modified_since_async/Binary/15"
      },
      "resource": {
        "id": "15",
        "resourceType": "Binary"
      },
      "response": {
        "status": "200"
      }
    },
    {
      "request": {
        "method": "GET",
        "url": "http://mock-server:1080/test_fhir_simulated_graph_caching_input_cache_if_modified_since_async/Practitioner/12345"
      },
      "resource": {
        "id": "12345",
        "resourceType": "Practitioner"
      },
      "response": {
        "status": "200"
      }
    }
  ]
}
