{
  "Patient": [
    {
      "resourceType": "Patient",
      "id": "1",
      "generalPractitioner": [
        {
          "reference": "Practitioner/5"
        }
      ],
      "managingOrganization": {
        "reference": "Organization/6"
      }
    }
  ],
  "Practitioner": [
    {
      "resourceType": "Practitioner",
      "id": "5"
    }
  ],
  "Organization": [
    {
      "resourceType": "Organization",
      "id": "6"
    },
    {
      "resourceType": "Organization",
      "id": "CoveragePayor"
    }
  ],
  "Coverage": [
    {
      "resourceType": "Coverage",
      "id": "7",
      "payor": [
        {
          "reference": "Organization/CoveragePayor"
        }
      ]
    }
  ],
  "Observation": [
    {
      "resourceType": "Observation",
      "id": "8"
    }
  ]
}
